participant,list_number,date,expName,psychopyVersion,OS,frameRate,info_sheet_loop.thisRepN,info_sheet_loop.thisTrialN,info_sheet_loop.thisN,info_sheet_loop.thisIndex,info_sheet_loop.ran,consent_key.keys,consent_key.rt,consent_loop.thisRepN,consent_loop.thisTrialN,consent_loop.thisN,consent_loop.thisIndex,consent_loop.ran,consent_item,ageResp.text,genderResp1.response,genderResp1.rt,genderResp2.text,mouse_3.x,mouse_3.y,mouse_3.leftButton,mouse_3.midButton,mouse_3.rightButton,mouse_3.clicked_name,edu_slider.response,q1_slider.response,q2_slider.response,q3_slider.response,q4_slider.response,q5_slider.response,next_slide_key.keys,next_slide_key.rt,instructions_loop.thisRepN,instructions_loop.thisTrialN,instructions_loop.thisN,instructions_loop.thisIndex,instructions_loop.ran,slide_text,instruction,triangle_pos,arrow_posy,arrow_posx,spacebar_continue.keys,spacebar_continue.rt,slider.response,slider.rt,trials.thisRepN,trials.thisTrialN,trials.thisN,trials.thisIndex,trials.ran,scale,label,item_type,item_no,sentence,question,correct_option,granularity,file_path,spacebar_continue_2.keys,spacebar_continue_2.rt,slider_2.response,slider_2.rt,trials_2.thisRepN,trials_2.thisTrialN,trials_2.thisN,trials_2.thisIndex,trials_2.ran,item_no2,sentence2,question2,correct_option2,granularity2,file_path2,spacebar_continue_3.keys,spacebar_continue_3.rt,textbox.text,mouse_2.x,mouse_2.y,mouse_2.leftButton,mouse_2.midButton,mouse_2.rightButton,mouse_2.clicked_name,total_duration
15,map_generator/lists/list3.csv,2023-04-10_15h45.45.803,3rd_year_project,2022.2.4,Win32,60.08893162,,,,,,,,,,,,,,,,,,,,,,,,,,,,,,,,,,,,,,,,,,,,,,,,,,,,,,,,,,,,,,,,,,,,,,,,,,,,,,,,,,,,
15,map_generator/lists/list3.csv,2023-04-10_15h45.45.803,3rd_year_project,2022.2.4,Win32,60.08893162,0,0,0,0,1,,,,,,,,,,,,,,,,,,,,,,,,,,,,,,,,,,,,,,,,,,,,,,,,,,,,,,,,,,,,,,,,,,,,,,,,,,,,,,,
15,map_generator/lists/list3.csv,2023-04-10_15h45.45.803,3rd_year_project,2022.2.4,Win32,60.08893162,1,0,1,0,1,,,,,,,,,,,,,,,,,,,,,,,,,,,,,,,,,,,,,,,,,,,,,,,,,,,,,,,,,,,,,,,,,,,,,,,,,,,,,,,
15,map_generator/lists/list3.csv,2023-04-10_15h45.45.803,3rd_year_project,2022.2.4,Win32,60.08893162,2,0,2,0,1,,,,,,,,,,,,,,,,,,,,,,,,,,,,,,,,,,,,,,,,,,,,,,,,,,,,,,,,,,,,,,,,,,,,,,,,,,,,,,,
15,map_generator/lists/list3.csv,2023-04-10_15h45.45.803,3rd_year_project,2022.2.4,Win32,60.08893162,3,0,3,0,1,,,,,,,,,,,,,,,,,,,,,,,,,,,,,,,,,,,,,,,,,,,,,,,,,,,,,,,,,,,,,,,,,,,,,,,,,,,,,,,
15,map_generator/lists/list3.csv,2023-04-10_15h45.45.803,3rd_year_project,2022.2.4,Win32,60.08893162,4,0,4,0,1,,,,,,,,,,,,,,,,,,,,,,,,,,,,,,,,,,,,,,,,,,,,,,,,,,,,,,,,,,,,,,,,,,,,,,,,,,,,,,,
15,map_generator/lists/list3.csv,2023-04-10_15h45.45.803,3rd_year_project,2022.2.4,Win32,60.08893162,,,,,,y,13.8037,0,0,0,0,1,"1 of 6
I confirm that I have read the attached information sheet (Version A7.0; Date 22/02/2023) for the above study and have had the opportunity to consider the information and ask questions and had these answered satisfactorily.",,,,,,,,,,,,,,,,,,,,,,,,,,,,,,,,,,,,,,,,,,,,,,,,,,,,,,,,,,,,,,,,,,,,,,,
15,map_generator/lists/list3.csv,2023-04-10_15h45.45.803,3rd_year_project,2022.2.4,Win32,60.08893162,,,,,,y,7.2949,0,1,1,1,1,"2 of 6
I understand that my participation in the study is voluntary and that I am free to withdraw at any time without giving a reason and without detriment to myself. I understand that it will not be possible to remove my data from the project once it has been anonymised and forms part of the data set.  

I agree to take part on this basis.",,,,,,,,,,,,,,,,,,,,,,,,,,,,,,,,,,,,,,,,,,,,,,,,,,,,,,,,,,,,,,,,,,,,,,,
15,map_generator/lists/list3.csv,2023-04-10_15h45.45.803,3rd_year_project,2022.2.4,Win32,60.08893162,,,,,,y,5.8026,0,2,2,2,1,"3 of 6
I agree that any data collected may be included in anonymous form in student theses/publications/conference presentations.",,,,,,,,,,,,,,,,,,,,,,,,,,,,,,,,,,,,,,,,,,,,,,,,,,,,,,,,,,,,,,,,,,,,,,,
15,map_generator/lists/list3.csv,2023-04-10_15h45.45.803,3rd_year_project,2022.2.4,Win32,60.08893162,,,,,,y,3.6597,0,3,3,3,1,"4 of 6
I understand that a fully anonymised dataset will be deposited in public open data repositories.",,,,,,,,,,,,,,,,,,,,,,,,,,,,,,,,,,,,,,,,,,,,,,,,,,,,,,,,,,,,,,,,,,,,,,,
15,map_generator/lists/list3.csv,2023-04-10_15h45.45.803,3rd_year_project,2022.2.4,Win32,60.08893162,,,,,,y,9.7249,0,4,4,4,1,"5 of 6
I understand that data collected during the study may be looked at by individuals from The University of Manchester or regulatory authorities, where it is relevant to my taking part in this research. I give permission for these individuals to have access to my data.",,,,,,,,,,,,,,,,,,,,,,,,,,,,,,,,,,,,,,,,,,,,,,,,,,,,,,,,,,,,,,,,,,,,,,,
15,map_generator/lists/list3.csv,2023-04-10_15h45.45.803,3rd_year_project,2022.2.4,Win32,60.08893162,,,,,,y,0.9285,0,5,5,5,1,"6 of 6
I agree to take part in this study.",,,,,,,,,,,,,,,,,,,,,,,,,,,,,,,,,,,,,,,,,,,,,,,,,,,,,,,,,,,,,,,,,,,,,,,
15,map_generator/lists/list3.csv,2023-04-10_15h45.45.803,3rd_year_project,2022.2.4,Win32,60.08893162,,,,,,,,,,,,,,22,5,4.3206,,0.037760417,-0.3828125,1,0,0,continue_box_2,,,,,,,,,,,,,,,,,,,,,,,,,,,,,,,,,,,,,,,,,,,,,,,,,,,,,,,,,,,,,
15,map_generator/lists/list3.csv,2023-04-10_15h45.45.803,3rd_year_project,2022.2.4,Win32,60.08893162,,,,,,,,,,,,,,,,,,,,,,,,4,,,,,,,,,,,,,,,,,,,,,,,,,,,,,,,,,,,,,,,,,,,,,,,,,,,,,,,,,,,,
15,map_generator/lists/list3.csv,2023-04-10_15h45.45.803,3rd_year_project,2022.2.4,Win32,60.08893162,,,,,,,,,,,,,,,,,,,,,,,,,4,3,4,3,3,,,,,,,,,,,,,,,,,,,,,,,,,,,,,,,,,,,,,,,,,,,,,,,,,,,,,,,
15,map_generator/lists/list3.csv,2023-04-10_15h45.45.803,3rd_year_project,2022.2.4,Win32,60.08893162,,,,,,,,,,,,,,,,,,,,,,,,,,,,,,space,35.7775,0,0,0,0,1,Slide 1 of 8,This experiment is about using information to make decisions. Each trial will look similar to this:,10,10,10,,,,,,,,,,,,,,,,,,,,,,,,,,,,,,,,,,,,,,,,,,,
15,map_generator/lists/list3.csv,2023-04-10_15h45.45.803,3rd_year_project,2022.2.4,Win32,60.08893162,,,,,,,,,,,,,,,,,,,,,,,,,,,,,,space,5.3397,0,1,1,1,1,Slide 2 of 8,"First, you should read the title of the graph.",10,0.05,-0.24,,,,,,,,,,,,,,,,,,,,,,,,,,,,,,,,,,,,,,,,,,,
15,map_generator/lists/list3.csv,2023-04-10_15h45.45.803,3rd_year_project,2022.2.4,Win32,60.08893162,,,,,,,,,,,,,,,,,,,,,,,,,,,,,,space,47.4002,0,2,2,2,1,Slide 3 of 8,Then you should look at the image. The x-axis shows the month of year. The y-axis shows the number of deaths.,10,-0.075,-0.24,,,,,,,,,,,,,,,,,,,,,,,,,,,,,,,,,,,,,,,,,,,
15,map_generator/lists/list3.csv,2023-04-10_15h45.45.803,3rd_year_project,2022.2.4,Win32,60.08893162,,,,,,,,,,,,,,,,,,,,,,,,,,,,,,space,51.5839,0,3,3,3,1,Slide 4 of 8,Data on different states using different colour schemes are shown. Higher number of deaths suggest higher severity of Covid 19.,10,-0.075,-0.24,,,,,,,,,,,,,,,,,,,,,,,,,,,,,,,,,,,,,,,,,,,
15,map_generator/lists/list3.csv,2023-04-10_15h45.45.803,3rd_year_project,2022.2.4,Win32,60.08893162,,,,,,,,,,,,,,,,,,,,,,,,,,,,,,space,4.3461,0,4,4,4,1,Slide 5 of 8,"Then you should read the question below the image. Here, the question asks you to rate the severity of Covid 19 in the shown region.",10,-0.28,-0.53,,,,,,,,,,,,,,,,,,,,,,,,,,,,,,,,,,,,,,,,,,,
15,map_generator/lists/list3.csv,2023-04-10_15h45.45.803,3rd_year_project,2022.2.4,Win32,60.08893162,,,,,,,,,,,,,,,,,,,,,,,,,,,,,,space,3.4606,0,5,5,5,1,Slide 6 of 8,You should move the marker to indicate your response.,0,-0.36,-0.45,,,,,,,,,,,,,,,,,,,,,,,,,,,,,,,,,,,,,,,,,,,
15,map_generator/lists/list3.csv,2023-04-10_15h45.45.803,3rd_year_project,2022.2.4,Win32,60.08893162,,,,,,,,,,,,,,,,,,,,,,,,,,,,,,space,6.8484,0,6,6,6,1,Slide 7 of 8,"You can change your answer as many times as you like, then you should press the spacebar to move on to the next trial.",0.1,-0.36,-0.45,,,,,,,,,,,,,,,,,,,,,,,,,,,,,,,,,,,,,,,,,,,
15,map_generator/lists/list3.csv,2023-04-10_15h45.45.803,3rd_year_project,2022.2.4,Win32,60.08893162,,,,,,,,,,,,,,,,,,,,,,,,,,,,,,space,2.4867,0,7,7,7,1,Slide 8 of 8,Press the spacebar to begin the experiment.,-0.1,10,10,,,,,,,,,,,,,,,,,,,,,,,,,,,,,,,,,,,,,,,,,,,
15,map_generator/lists/list3.csv,2023-04-10_15h45.45.803,3rd_year_project,2022.2.4,Win32,60.08893162,,,,,,,,,,,,,,,,,,,,,,,,,,,,,,,,,,,,,,,,,,space,45.6525,1.716145833,57.7695,0,0,0,42,1,trunc,blank,E,43,This graph shows the Covid 19 death rate for each month in 2021 in USA states:,How severe is Covid 19 in this region?,NA,0,map_generator/charts/43br.png,,,,,,,,,,,,,,,,,,,,,,,,,
15,map_generator/lists/list3.csv,2023-04-10_15h45.45.803,3rd_year_project,2022.2.4,Win32,60.08893162,,,,,,,,,,,,,,,,,,,,,,,,,,,,,,,,,,,,,,,,,,space,45.5007,1.182291667,44.4763,0,1,1,35,1,extend,blank,E,36,This graph shows the Covid 19 death rate for each month in 2021 in USA states:,How severe is Covid 19 in this region?,NA,0,map_generator/charts/36bg.png,,,,,,,,,,,,,,,,,,,,,,,,,
15,map_generator/lists/list3.csv,2023-04-10_15h45.45.803,3rd_year_project,2022.2.4,Win32,60.08893162,,,,,,,,,,,,,,,,,,,,,,,,,,,,,,,,,,,,,,,,,,space,21.2915,1.848958333,16.1469,0,2,2,44,1,trunc,label,E,45,This graph shows the Covid 19 death rate for each month in 2021 in USA states:,How severe is Covid 19 in this region?,NA,0,map_generator/charts/45wr.png,,,,,,,,,,,,,,,,,,,,,,,,,
15,map_generator/lists/list3.csv,2023-04-10_15h45.45.803,3rd_year_project,2022.2.4,Win32,60.08893162,,,,,,,,,,,,,,,,,,,,,,,,,,,,,,,,,,,,,,,,,,space,17.5587,1.625,21.2637,0,3,3,37,1,trunc,label,E,38,This graph shows the Covid 19 death rate for each month in 2021 in USA states:,How severe is Covid 19 in this region?,NA,0,map_generator/charts/38wg.png,,,,,,,,,,,,,,,,,,,,,,,,,
15,map_generator/lists/list3.csv,2023-04-10_15h45.45.803,3rd_year_project,2022.2.4,Win32,60.08893162,,,,,,,,,,,,,,,,,,,,,,,,,,,,,,,,,,,,,,,,,,space,54.1446,1.619791667,63.8865,0,4,4,17,1,trunc,label,E,18,This graph shows the Covid 19 death rate for each month in 2021 in USA states:,How severe is Covid 19 in this region?,NA,0,map_generator/charts/18wg.png,,,,,,,,,,,,,,,,,,,,,,,,,
15,map_generator/lists/list3.csv,2023-04-10_15h45.45.803,3rd_year_project,2022.2.4,Win32,60.08893162,,,,,,,,,,,,,,,,,,,,,,,,,,,,,,,,,,,,,,,,,,space,24.5564,1.591145833,42.1277,0,5,5,48,1,trunc,blank,E,49,This graph shows the Covid 19 death rate for each month in 2021 in USA states:,How severe is Covid 19 in this region?,NA,0,map_generator/charts/49wr.png,,,,,,,,,,,,,,,,,,,,,,,,,
15,map_generator/lists/list3.csv,2023-04-10_15h45.45.803,3rd_year_project,2022.2.4,Win32,60.08893162,,,,,,,,,,,,,,,,,,,,,,,,,,,,,,,,,,,,,,,,,,space,24.8433,1.151041667,22.9573,0,6,6,8,1,trunc,label,E,9,This graph shows the Covid 19 death rate for each month in 2021 in USA states:,How severe is Covid 19 in this region?,NA,0,map_generator/charts/9wr.png,,,,,,,,,,,,,,,,,,,,,,,,,
15,map_generator/lists/list3.csv,2023-04-10_15h45.45.803,3rd_year_project,2022.2.4,Win32,60.08893162,,,,,,,,,,,,,,,,,,,,,,,,,,,,,,,,,,,,,,,,,,space,18.6845,1.4921875,14.2119,0,7,7,21,1,extend,label,E,22,This graph shows the Covid 19 death rate for each month in 2021 in USA states:,How severe is Covid 19 in this region?,NA,0,map_generator/charts/22wg.png,,,,,,,,,,,,,,,,,,,,,,,,,
15,map_generator/lists/list3.csv,2023-04-10_15h45.45.803,3rd_year_project,2022.2.4,Win32,60.08893162,,,,,,,,,,,,,,,,,,,,,,,,,,,,,,,,,,,,,,,,,,space,20.1204,1.856770833,29.5931,0,8,8,22,1,trunc,blank,E,23,This graph shows the Covid 19 death rate for each month in 2021 in USA states:,How severe is Covid 19 in this region?,NA,0,map_generator/charts/23br.png,,,,,,,,,,,,,,,,,,,,,,,,,
15,map_generator/lists/list3.csv,2023-04-10_15h45.45.803,3rd_year_project,2022.2.4,Win32,60.08893162,,,,,,,,,,,,,,,,,,,,,,,,,,,,,,,,,,,,,,,,,,space,77.4872,1.955729167,88.9037,0,9,9,4,1,extend,label,E,5,This graph shows the Covid 19 death rate for each month in 2021 in USA states:,How severe is Covid 19 in this region?,NA,0,map_generator/charts/5wr.png,,,,,,,,,,,,,,,,,,,,,,,,,
15,map_generator/lists/list3.csv,2023-04-10_15h45.45.803,3rd_year_project,2022.2.4,Win32,60.08893162,,,,,,,,,,,,,,,,,,,,,,,,,,,,,,,,,,,,,,,,,,space,65.7673,1.7578125,18.978,0,10,10,32,1,trunc,label,E,33,This graph shows the Covid 19 death rate for each month in 2021 in USA states:,How severe is Covid 19 in this region?,NA,0,map_generator/charts/33wr.png,,,,,,,,,,,,,,,,,,,,,,,,,
15,map_generator/lists/list3.csv,2023-04-10_15h45.45.803,3rd_year_project,2022.2.4,Win32,60.08893162,,,,,,,,,,,,,,,,,,,,,,,,,,,,,,,,,,,,,,,,,,space,11.978,1.619791667,9.7014,0,11,11,14,1,extend,blank,E,15,This graph shows the Covid 19 death rate for each month in 2021 in USA states:,How severe is Covid 19 in this region?,NA,0,map_generator/charts/15br.png,,,,,,,,,,,,,,,,,,,,,,,,,
15,map_generator/lists/list3.csv,2023-04-10_15h45.45.803,3rd_year_project,2022.2.4,Win32,60.08893162,,,,,,,,,,,,,,,,,,,,,,,,,,,,,,,,,,,,,,,,,,space,20.8323,1.174479167,24.7123,0,12,12,7,1,extend,blank,E,8,This graph shows the Covid 19 death rate for each month in 2021 in USA states:,How severe is Covid 19 in this region?,NA,0,map_generator/charts/8bg.png,,,,,,,,,,,,,,,,,,,,,,,,,
15,map_generator/lists/list3.csv,2023-04-10_15h45.45.803,3rd_year_project,2022.2.4,Win32,60.08893162,,,,,,,,,,,,,,,,,,,,,,,,,,,,,,,,,,,,,,,,,,space,17,1.192708333,32.7998,0,13,13,41,1,trunc,label,E,42,This graph shows the Covid 19 death rate for each month in 2021 in USA states:,How severe is Covid 19 in this region?,NA,0,map_generator/charts/42wg.png,,,,,,,,,,,,,,,,,,,,,,,,,
15,map_generator/lists/list3.csv,2023-04-10_15h45.45.803,3rd_year_project,2022.2.4,Win32,60.08893162,,,,,,,,,,,,,,,,,,,,,,,,,,,,,,,,,,,,,,,,,,space,23.2316,1.546875,35.6636,0,14,14,30,1,trunc,blank,E,31,This graph shows the Covid 19 death rate for each month in 2021 in USA states:,How severe is Covid 19 in this region?,NA,0,map_generator/charts/31br.png,,,,,,,,,,,,,,,,,,,,,,,,,
15,map_generator/lists/list3.csv,2023-04-10_15h45.45.803,3rd_year_project,2022.2.4,Win32,60.08893162,,,,,,,,,,,,,,,,,,,,,,,,,,,,,,,,,,,,,,,,,,space,10.0173,1.3984375,10.1974,0,15,15,3,1,trunc,blank,E,4,This graph shows the Covid 19 death rate for each month in 2021 in USA states:,How severe is Covid 19 in this region?,NA,0,map_generator/charts/4bg.png,,,,,,,,,,,,,,,,,,,,,,,,,
15,map_generator/lists/list3.csv,2023-04-10_15h45.45.803,3rd_year_project,2022.2.4,Win32,60.08893162,,,,,,,,,,,,,,,,,,,,,,,,,,,,,,,,,,,,,,,,,,space,19.5501,1.3828125,88.7349,0,16,16,23,1,extend,blank,E,24,This graph shows the Covid 19 death rate for each month in 2021 in USA states:,How severe is Covid 19 in this region?,NA,0,map_generator/charts/24bg.png,,,,,,,,,,,,,,,,,,,,,,,,,
15,map_generator/lists/list3.csv,2023-04-10_15h45.45.803,3rd_year_project,2022.2.4,Win32,60.08893162,,,,,,,,,,,,,,,,,,,,,,,,,,,,,,,,,,,,,,,,,,space,23.5089,1.127604167,29.1377,0,17,17,11,1,extend,blank,E,12,This graph shows the Covid 19 death rate for each month in 2021 in USA states:,How severe is Covid 19 in this region?,NA,0,map_generator/charts/12bg.png,,,,,,,,,,,,,,,,,,,,,,,,,
15,map_generator/lists/list3.csv,2023-04-10_15h45.45.803,3rd_year_project,2022.2.4,Win32,60.08893162,,,,,,,,,,,,,,,,,,,,,,,,,,,,,,,,,,,,,,,,,,space,8.6328,1.658854167,20.6084,0,18,18,34,1,trunc,blank,E,35,This graph shows the Covid 19 death rate for each month in 2021 in USA states:,How severe is Covid 19 in this region?,NA,0,map_generator/charts/35br.png,,,,,,,,,,,,,,,,,,,,,,,,,
15,map_generator/lists/list3.csv,2023-04-10_15h45.45.803,3rd_year_project,2022.2.4,Win32,60.08893162,,,,,,,,,,,,,,,,,,,,,,,,,,,,,,,,,,,,,,,,,,space,26.1337,1.403645833,29.7422,0,19,19,16,1,extend,label,E,17,This graph shows the Covid 19 death rate for each month in 2021 in USA states:,How severe is Covid 19 in this region?,NA,0,map_generator/charts/17wr.png,,,,,,,,,,,,,,,,,,,,,,,,,
15,map_generator/lists/list3.csv,2023-04-10_15h45.45.803,3rd_year_project,2022.2.4,Win32,60.08893162,,,,,,,,,,,,,,,,,,,,,,,,,,,,,,,,,,,,,,,,,,space,12.917,1.6796875,54.974,0,20,20,0,1,extend,label,E,1,This graph shows the Covid 19 death rate for each month in 2021 in USA states:,How severe is Covid 19 in this region?,NA,0,map_generator/charts/1wr.png,,,,,,,,,,,,,,,,,,,,,,,,,
15,map_generator/lists/list3.csv,2023-04-10_15h45.45.803,3rd_year_project,2022.2.4,Win32,60.08893162,,,,,,,,,,,,,,,,,,,,,,,,,,,,,,,,,,,,,,,,,,space,14.034,1.1328125,17.715,0,21,21,1,1,trunc,label,E,2,This graph shows the Covid 19 death rate for each month in 2021 in USA states:,How severe is Covid 19 in this region?,NA,0,map_generator/charts/2wg.png,,,,,,,,,,,,,,,,,,,,,,,,,
15,map_generator/lists/list3.csv,2023-04-10_15h45.45.803,3rd_year_project,2022.2.4,Win32,60.08893162,,,,,,,,,,,,,,,,,,,,,,,,,,,,,,,,,,,,,,,,,,space,16.2672,1.791666667,9.7641,0,22,22,9,1,extend,label,E,10,This graph shows the Covid 19 death rate for each month in 2021 in USA states:,How severe is Covid 19 in this region?,NA,0,map_generator/charts/10wg.png,,,,,,,,,,,,,,,,,,,,,,,,,
15,map_generator/lists/list3.csv,2023-04-10_15h45.45.803,3rd_year_project,2022.2.4,Win32,60.08893162,,,,,,,,,,,,,,,,,,,,,,,,,,,,,,,,,,,,,,,,,,space,24.2313,1.611979167,40.3077,0,23,23,33,1,extend,label,E,34,This graph shows the Covid 19 death rate for each month in 2021 in USA states:,How severe is Covid 19 in this region?,NA,0,map_generator/charts/34wg.png,,,,,,,,,,,,,,,,,,,,,,,,,
15,map_generator/lists/list3.csv,2023-04-10_15h45.45.803,3rd_year_project,2022.2.4,Win32,60.08893162,,,,,,,,,,,,,,,,,,,,,,,,,,,,,,,,,,,,,,,,,,space,12.1515,1.296875,13.7701,0,24,24,46,1,trunc,blank,E,47,This graph shows the Covid 19 death rate for each month in 2021 in USA states:,How severe is Covid 19 in this region?,NA,0,map_generator/charts/47br.png,,,,,,,,,,,,,,,,,,,,,,,,,
15,map_generator/lists/list3.csv,2023-04-10_15h45.45.803,3rd_year_project,2022.2.4,Win32,60.08893162,,,,,,,,,,,,,,,,,,,,,,,,,,,,,,,,,,,,,,,,,,space,12.7681,1.3828125,38.6747,0,25,25,6,1,trunc,blank,E,7,This graph shows the Covid 19 death rate for each month in 2021 in USA states:,How severe is Covid 19 in this region?,NA,0,map_generator/charts/7br.png,,,,,,,,,,,,,,,,,,,,,,,,,
15,map_generator/lists/list3.csv,2023-04-10_15h45.45.803,3rd_year_project,2022.2.4,Win32,60.08893162,,,,,,,,,,,,,,,,,,,,,,,,,,,,,,,,,,,,,,,,,,space,8.9507,1.7734375,15.2692,0,26,26,45,1,extend,label,E,46,This graph shows the Covid 19 death rate for each month in 2021 in USA states:,How severe is Covid 19 in this region?,NA,0,map_generator/charts/46wg.png,,,,,,,,,,,,,,,,,,,,,,,,,
15,map_generator/lists/list3.csv,2023-04-10_15h45.45.803,3rd_year_project,2022.2.4,Win32,60.08893162,,,,,,,,,,,,,,,,,,,,,,,,,,,,,,,,,,,,,,,,,,space,83.8724,1.5703125,92.7547,0,27,27,13,1,trunc,label,E,14,This graph shows the Covid 19 death rate for each month in 2021 in USA states:,How severe is Covid 19 in this region?,NA,0,map_generator/charts/14wg.png,,,,,,,,,,,,,,,,,,,,,,,,,
15,map_generator/lists/list3.csv,2023-04-10_15h45.45.803,3rd_year_project,2022.2.4,Win32,60.08893162,,,,,,,,,,,,,,,,,,,,,,,,,,,,,,,,,,,,,,,,,,space,11.5826,1.640625,11.6512,0,28,28,2,1,extend,blank,E,3,This graph shows the Covid 19 death rate for each month in 2021 in USA states:,How severe is Covid 19 in this region?,NA,0,map_generator/charts/3br.png,,,,,,,,,,,,,,,,,,,,,,,,,
15,map_generator/lists/list3.csv,2023-04-10_15h45.45.803,3rd_year_project,2022.2.4,Win32,60.08893162,,,,,,,,,,,,,,,,,,,,,,,,,,,,,,,,,,,,,,,,,,space,12.4508,1.213541667,15.211,0,29,29,27,1,trunc,blank,E,28,This graph shows the Covid 19 death rate for each month in 2021 in USA states:,How severe is Covid 19 in this region?,NA,0,map_generator/charts/28bg.png,,,,,,,,,,,,,,,,,,,,,,,,,
15,map_generator/lists/list3.csv,2023-04-10_15h45.45.803,3rd_year_project,2022.2.4,Win32,60.08893162,,,,,,,,,,,,,,,,,,,,,,,,,,,,,,,,,,,,,,,,,,space,13.2842,1.5859375,11.893,0,30,30,10,1,trunc,blank,E,11,This graph shows the Covid 19 death rate for each month in 2021 in USA states:,How severe is Covid 19 in this region?,NA,0,map_generator/charts/11br.png,,,,,,,,,,,,,,,,,,,,,,,,,
15,map_generator/lists/list3.csv,2023-04-10_15h45.45.803,3rd_year_project,2022.2.4,Win32,60.08893162,,,,,,,,,,,,,,,,,,,,,,,,,,,,,,,,,,,,,,,,,,space,14.8985,1.236979167,65.0001,0,31,31,26,1,extend,blank,E,27,This graph shows the Covid 19 death rate for each month in 2021 in USA states:,How severe is Covid 19 in this region?,NA,0,map_generator/charts/27br.png,,,,,,,,,,,,,,,,,,,,,,,,,
15,map_generator/lists/list3.csv,2023-04-10_15h45.45.803,3rd_year_project,2022.2.4,Win32,60.08893162,,,,,,,,,,,,,,,,,,,,,,,,,,,,,,,,,,,,,,,,,,space,5.4009,1.348958333,2.9619,0,32,32,31,1,extend,blank,E,32,This graph shows the Covid 19 death rate for each month in 2021 in USA states:,How severe is Covid 19 in this region?,NA,0,map_generator/charts/32bg.png,,,,,,,,,,,,,,,,,,,,,,,,,
15,map_generator/lists/list3.csv,2023-04-10_15h45.45.803,3rd_year_project,2022.2.4,Win32,60.08893162,,,,,,,,,,,,,,,,,,,,,,,,,,,,,,,,,,,,,,,,,,space,10.8872,1.614583333,11.5561,0,33,33,36,1,extend,label,E,37,This graph shows the Covid 19 death rate for each month in 2021 in USA states:,How severe is Covid 19 in this region?,NA,0,map_generator/charts/37wr.png,,,,,,,,,,,,,,,,,,,,,,,,,
15,map_generator/lists/list3.csv,2023-04-10_15h45.45.803,3rd_year_project,2022.2.4,Win32,60.08893162,,,,,,,,,,,,,,,,,,,,,,,,,,,,,,,,,,,,,,,,,,space,5.9347,1.6640625,6.8697,0,34,34,39,1,trunc,blank,E,40,This graph shows the Covid 19 death rate for each month in 2021 in USA states:,How severe is Covid 19 in this region?,NA,0,map_generator/charts/40bg.png,,,,,,,,,,,,,,,,,,,,,,,,,
15,map_generator/lists/list3.csv,2023-04-10_15h45.45.803,3rd_year_project,2022.2.4,Win32,60.08893162,,,,,,,,,,,,,,,,,,,,,,,,,,,,,,,,,,,,,,,,,,space,22.4156,1.640625,22.4884,0,35,35,25,1,trunc,label,E,26,This graph shows the Covid 19 death rate for each month in 2021 in USA states:,How severe is Covid 19 in this region?,NA,0,map_generator/charts/26wg.png,,,,,,,,,,,,,,,,,,,,,,,,,
15,map_generator/lists/list3.csv,2023-04-10_15h45.45.803,3rd_year_project,2022.2.4,Win32,60.08893162,,,,,,,,,,,,,,,,,,,,,,,,,,,,,,,,,,,,,,,,,,space,22.0002,1.21875,24.422,0,36,36,40,1,extend,label,E,41,This graph shows the Covid 19 death rate for each month in 2021 in USA states:,How severe is Covid 19 in this region?,NA,0,map_generator/charts/41wr.png,,,,,,,,,,,,,,,,,,,,,,,,,
15,map_generator/lists/list3.csv,2023-04-10_15h45.45.803,3rd_year_project,2022.2.4,Win32,60.08893162,,,,,,,,,,,,,,,,,,,,,,,,,,,,,,,,,,,,,,,,,,space,8.0172,1.041666667,4.878,0,37,37,47,1,extend,blank,E,48,This graph shows the Covid 19 death rate for each month in 2021 in USA states:,How severe is Covid 19 in this region?,NA,0,map_generator/charts/48bg.png,,,,,,,,,,,,,,,,,,,,,,,,,
15,map_generator/lists/list3.csv,2023-04-10_15h45.45.803,3rd_year_project,2022.2.4,Win32,60.08893162,,,,,,,,,,,,,,,,,,,,,,,,,,,,,,,,,,,,,,,,,,space,14.4514,1.296875,16.4958,0,38,38,38,1,extend,blank,E,39,This graph shows the Covid 19 death rate for each month in 2021 in USA states:,How severe is Covid 19 in this region?,NA,0,map_generator/charts/39br.png,,,,,,,,,,,,,,,,,,,,,,,,,
15,map_generator/lists/list3.csv,2023-04-10_15h45.45.803,3rd_year_project,2022.2.4,Win32,60.08893162,,,,,,,,,,,,,,,,,,,,,,,,,,,,,,,,,,,,,,,,,,space,11.2383,1.2265625,13.1366,0,39,39,29,1,trunc,label,E,30,This graph shows the Covid 19 death rate for each month in 2021 in USA states:,How severe is Covid 19 in this region?,NA,0,map_generator/charts/30wg.png,,,,,,,,,,,,,,,,,,,,,,,,,
15,map_generator/lists/list3.csv,2023-04-10_15h45.45.803,3rd_year_project,2022.2.4,Win32,60.08893162,,,,,,,,,,,,,,,,,,,,,,,,,,,,,,,,,,,,,,,,,,space,6.0218,1.1640625,3.6564,0,40,40,43,1,extend,blank,E,44,This graph shows the Covid 19 death rate for each month in 2021 in USA states:,How severe is Covid 19 in this region?,NA,0,map_generator/charts/44bg.png,,,,,,,,,,,,,,,,,,,,,,,,,
15,map_generator/lists/list3.csv,2023-04-10_15h45.45.803,3rd_year_project,2022.2.4,Win32,60.08893162,,,,,,,,,,,,,,,,,,,,,,,,,,,,,,,,,,,,,,,,,,space,29.9393,1.520833333,33.2961,0,41,41,18,1,trunc,blank,E,19,This graph shows the Covid 19 death rate for each month in 2021 in USA states:,How severe is Covid 19 in this region?,NA,0,map_generator/charts/19br.png,,,,,,,,,,,,,,,,,,,,,,,,,
15,map_generator/lists/list3.csv,2023-04-10_15h45.45.803,3rd_year_project,2022.2.4,Win32,60.08893162,,,,,,,,,,,,,,,,,,,,,,,,,,,,,,,,,,,,,,,,,,space,23.7616,1.424479167,32.124,0,42,42,5,1,trunc,label,E,6,This graph shows the Covid 19 death rate for each month in 2021 in USA states:,How severe is Covid 19 in this region?,NA,0,map_generator/charts/6wg.png,,,,,,,,,,,,,,,,,,,,,,,,,
15,map_generator/lists/list3.csv,2023-04-10_15h45.45.803,3rd_year_project,2022.2.4,Win32,60.08893162,,,,,,,,,,,,,,,,,,,,,,,,,,,,,,,,,,,,,,,,,,space,3.751,1.427083333,3.0691,0,43,43,28,1,extend,label,E,29,This graph shows the Covid 19 death rate for each month in 2021 in USA states:,How severe is Covid 19 in this region?,NA,0,map_generator/charts/29wr.png,,,,,,,,,,,,,,,,,,,,,,,,,
15,map_generator/lists/list3.csv,2023-04-10_15h45.45.803,3rd_year_project,2022.2.4,Win32,60.08893162,,,,,,,,,,,,,,,,,,,,,,,,,,,,,,,,,,,,,,,,,,space,6.8985,1.291666667,10.2408,0,44,44,15,1,trunc,blank,E,16,This graph shows the Covid 19 death rate for each month in 2021 in USA states:,How severe is Covid 19 in this region?,NA,0,map_generator/charts/16bg.png,,,,,,,,,,,,,,,,,,,,,,,,,
15,map_generator/lists/list3.csv,2023-04-10_15h45.45.803,3rd_year_project,2022.2.4,Win32,60.08893162,,,,,,,,,,,,,,,,,,,,,,,,,,,,,,,,,,,,,,,,,,space,8.9495,1.171875,12.2329,0,45,45,19,1,extend,blank,E,20,This graph shows the Covid 19 death rate for each month in 2021 in USA states:,How severe is Covid 19 in this region?,NA,0,map_generator/charts/20bg.png,,,,,,,,,,,,,,,,,,,,,,,,,
15,map_generator/lists/list3.csv,2023-04-10_15h45.45.803,3rd_year_project,2022.2.4,Win32,60.08893162,,,,,,,,,,,,,,,,,,,,,,,,,,,,,,,,,,,,,,,,,,space,6.8685,1.244791667,5.998,0,46,46,12,1,extend,label,E,13,This graph shows the Covid 19 death rate for each month in 2021 in USA states:,How severe is Covid 19 in this region?,NA,0,map_generator/charts/13wr.png,,,,,,,,,,,,,,,,,,,,,,,,,
15,map_generator/lists/list3.csv,2023-04-10_15h45.45.803,3rd_year_project,2022.2.4,Win32,60.08893162,,,,,,,,,,,,,,,,,,,,,,,,,,,,,,,,,,,,,,,,,,space,18.5045,1.505208333,18.6804,0,47,47,20,1,trunc,label,E,21,This graph shows the Covid 19 death rate for each month in 2021 in USA states:,How severe is Covid 19 in this region?,NA,0,map_generator/charts/21wr.png,,,,,,,,,,,,,,,,,,,,,,,,,
15,map_generator/lists/list3.csv,2023-04-10_15h45.45.803,3rd_year_project,2022.2.4,Win32,60.08893162,,,,,,,,,,,,,,,,,,,,,,,,,,,,,,,,,,,,,,,,,,space,1.5656,1.46875,4.4824,0,48,48,49,1,extend,blank,E,50,This graph shows the Covid 19 death rate for each month in 2021 in USA states:,How severe is Covid 19 in this region?,NA,0,map_generator/charts/50wg.png,,,,,,,,,,,,,,,,,,,,,,,,,
15,map_generator/lists/list3.csv,2023-04-10_15h45.45.803,3rd_year_project,2022.2.4,Win32,60.08893162,,,,,,,,,,,,,,,,,,,,,,,,,,,,,,,,,,,,,,,,,,space,5.2193,1.455729167,6.9488,0,49,49,24,1,extend,label,E,25,This graph shows the Covid 19 death rate for each month in 2021 in USA states:,How severe is Covid 19 in this region?,NA,0,map_generator/charts/25wr.png,,,,,,,,,,,,,,,,,,,,,,,,,
15,map_generator/lists/list3.csv,2023-04-10_15h45.45.803,3rd_year_project,2022.2.4,Win32,60.08893162,,,,,,,,,,,,,,,,,,,,,,,,,,,,,,,,,,,,,,,,,,,,,,,,,,,,,,,,,,,,space,41.2519,1.893229167,38.0451,0,0,0,0,1,1,This graph shows the Covid 19 death rate for each month in 2021 in USA states:,How appropriate are the colours of the graph?,NA,0,map_generator/charts/1wr.png,,,,,,,,,,
15,map_generator/lists/list3.csv,2023-04-10_15h45.45.803,3rd_year_project,2022.2.4,Win32,60.08893162,,,,,,,,,,,,,,,,,,,,,,,,,,,,,,,,,,,,,,,,,,,,,,,,,,,,,,,,,,,,space,23.8446,1.221354167,23.5373,0,1,1,1,1,2,This graph shows the Covid 19 death rate for each month in 2021 in USA states:,How appropriate are the colours of the graph?,NA,0,map_generator/charts/1wg.png,,,,,,,,,,
15,map_generator/lists/list3.csv,2023-04-10_15h45.45.803,3rd_year_project,2022.2.4,Win32,60.08893162,,,,,,,,,,,,,,,,,,,,,,,,,,,,,,,,,,,,,,,,,,,,,,,,,,,,,,,,,,,,space,8.3862,1.122395833,3.5358,0,2,2,2,1,3,This graph shows the Covid 19 death rate for each month in 2021 in USA states:,How appropriate are the colours of the graph?,NA,0,map_generator/charts/1br.png,,,,,,,,,,
15,map_generator/lists/list3.csv,2023-04-10_15h45.45.803,3rd_year_project,2022.2.4,Win32,60.08893162,,,,,,,,,,,,,,,,,,,,,,,,,,,,,,,,,,,,,,,,,,,,,,,,,,,,,,,,,,,,space,4.5519,1.122395833,1.797,0,3,3,3,1,4,This graph shows the Covid 19 death rate for each month in 2021 in USA states:,How appropriate are the colours of the graph?,NA,0,map_generator/charts/1bg.png,,,,,,,,,,
15,map_generator/lists/list3.csv,2023-04-10_15h45.45.803,3rd_year_project,2022.2.4,Win32,60.08893162,,,,,,,,,,,,,,,,,,,,,,,,,,,,,,,,,,,,,,,,,,,,,,,,,,,,,,,,,,,,,,,,,,,,,,,,,,,"[""space""]",[11.071700000047713],,,,,,,,
15,map_generator/lists/list3.csv,2023-04-10_15h45.45.803,3rd_year_project,2022.2.4,Win32,60.08893162,,,,,,,,,,,,,,,,,,,,,,,,,,,,,,,,,,,,,,,,,,,,,,,,,,,,,,,,,,,,,,,,,,,,,,,,,,,,,"I attempted to visualise numerical markers on the slider to help me place the different values, but this was difficult without knowing what the minimum and maximum number of deaths (highest and lowest severities) would ultimately be.",-0.0546875,-0.403645833,1,0,0,continue_box,3819.3299
15,map_generator/lists/list3.csv,2023-04-10_15h45.45.803,3rd_year_project,2022.2.4,Win32,60.08893162,,,,,,,,,,,,,,,,,,,,,,,,,,,,,,,,,,,,,,,,,,,,,,,,,,,,,,,,,,,,,,,,,,,,,,,,,,,,,,,,,,,,
